Folder: RubberizedRecycledConcrete

File: Compressive.csv
Water kg/m3,Cement kg/m3,Water / Cement Ratio,Natural Coarse Aggregate Fineness Modulus,Natural Coarse Aggregate (kg/m3),Recycled Coarse Aggregate Fineness Modulus,Recycled coarse aggregate Absorption Capacity (%),Recycled Coarse Aggregate (kg/m3),Replacement Percentage of Recycled Coarse Aggregate (%),Natural Fine Aggregate Fineness Modulus,Natural Fine Aggregate (kg/m3),Crumb Rubber FM,Crumb Rubber (kg/m3),Replacement Percentage of Crumb Rubber (%),Addition of Fiber (kg/m3),Fiber Mass(%),No Fiber,PPFiber,SteelFiber,SteelTireWiresFiber,Age (Days),Compressive Strength (MPa)
162.298,427.1,0.38,6.51,990.2,0,0,0,0,2.39,678.7,0,0,0,0,0,1,0,0,0,7,18.8
162.298,427.1,0.38,6.51,891.2,6.45,3.23,99.02,10,2.39,678.7,0,0,0,0,0,1,0,0,0,7,25.3
162.298,427.1,0.38,6.51,891.2,6.45,3.23,99.02,10,2.39,678.7,0,0,0,9.1,1,0,1,0,0,7,25.82
162.298,427.1,0.38,6.51,891.2,6.45,3.23,99.02,10,2.39,662.1,3.49,16.6,5,9.1,1,0,1,0,0,7,23.21
162.298,427.1,0.38,6.51,891.2,6.45,3.23,99.02,10,2.39,662.1,3.49,16.6,5,18.2,2,0,1,0,0,7,22.57
162.298,427.1,0.38,6.51,891.2,6.45,3.23,99.02,10,2.39,645.5,3.49,33.2,10,9.1,1,0,1,0,0,7,17.96
162.298,427.1,0.38,6.51,693.2,6.45,3.23,297.06,30,2.39,678.7,0,0,0,0,0,1,0,0,0,7,14.96
162.298,427.1,0.38,6.51,693.2,6.45,3.23,297.06,30,2.39,678.7,0,0,0,9.1,1,0,1,0,0,7,23.39
162.298,427.1,0.38,6.51,693.2,6.45,3.23,297.06,30,2.39,678.7,0,0,0,18.2,2,0,1,0,0,7,29.46
162.298,427.1,0.38,6.51,693.2,6.45,3.23,297.06,30,2.39,662.1,3.49,16.6,5,18.2,2,0,1,0,0,7,24.13
162.298,427.1,0.38,6.51,693.2,6.45,3.23,297.06,30,2.39,645.5,3.49,33.2,10,9.1,1,0,1,0,0,7,24.07
162.298,427.1,0.38,6.51,693.2,6.45,3.23,297.06,30,2.39,645.5,3.49,33.2,10,18.2,2,0,1,0,0,7,21.92
162.298,427.1,0.38,6.51,891.2,6.45,3.23,99.02,10,2.39,678.7,0,0,0,0,0,1,0,0,0,28,38.1
162.298,427.1,0.38,6.51,891.2,6.45,3.23,99.02,10,2.39,678.7,0,0,0,9.1,1,0,1,0,0,28,34.84
162.298,427.1,0.38,6.51,891.2,6.45,3.23,99.02,10,2.39,678.7,0,0,0,18.2,2,0,1,0,0,28,37.61
162.298,427.1,0.38,6.51,891.2,6.45,3.23,99.02,10,2.39,662.1,3.49,16.6,5,18.2,2,0,1,0,0,28,32.8
162.298,427.1,0.38,6.51,891.2,6.45,3.23,99.02,10,2.39,645.5,3.49,33.2,10,9.1,1,0,1,0,0,28,31.03
162.298,427.1,0.38,6.51,891.2,6.45,3.23,99.02,10,2.39,645.5,3.49,33.2,10,18.2,2,0,1,0,0,28,32.79
162.298,427.1,0.38,6.51,693.2,6.45,3.23,297.06,30,2.39,678.7,0,0,0,9.1,1,0,1,0,0,28,33.14
162.298,427.1,0.38,6.51,693.2,6.45,3.23,297.06,30,2.39,678.7,0,0,0,18.2,2,0,1,0,0,28,40.21
162.298,427.1,0.38,6.51,693.2,6.45,3.23,297.06,30,2.39,662.1,3.49,16.6,5,9.1,1,0,1,0,0,28,31.19
162.298,427.1,0.38,6.51,693.2,6.45,3.23,297.06,30,2.39,645.5,3.49,33.2,10,9.1,1,0,1,0,0,28,31.38
162.298,427.1,0.38,6.51,693.2,6.45,3.23,297.06,30,2.39,645.5,3.49,33.2,10,18.2,2,0,1,0,0,28,29.06
162.298,427.1,0.38,6.51,990.2,0,0,0,0,2.39,678.7,0,0,0,0,0,1,0,0,0,56,37.41
162.298,427.1,0.38,6.51,891.2,6.45,3.23,99.02,10,2.39,678.7,0,0,0,9.1,1,0,1,0,0,56,41.86
162.298,427.1,0.38,6.51,891.2,6.45,3.23,99.02,10,2.39,678.7,0,0,0,18.2,2,0,1,0,0,56,41.13
162.298,427.1,0.38,6.51,891.2,6.45,3.23,99.02,10,2.39,662.1,3.49,16.6,5,9.1,1,0,1,0,0,56,35.24
162.298,427.1,0.38,6.51,891.2,6.45,3.23,99.02,10,2.39,645.5,3.49,33.2,10,9.1,1,0,1,0,0,56,28.99
162.298,427.1,0.38,6.51,891.2,6.45,3.23,99.02,10,2.39,645.5,3.49,33.2,10,18.2,2,0,1,0,0,56,37.46
162.298,427.1,0.38,6.51,693.2,6.45,3.23,297.06,30,2.39,678.7,0,0,0,0,0,1,0,0,0,56,32.63
162.298,427.1,0.38,6.51,693.2,6.45,3.23,297.06,30,2.39,678.7,0,0,0,18.2,2,0,1,0,0,56,46.09
162.298,427.1,0.38,6.51,693.2,6.45,3.23,297.06,30,2.39,662.1,3.49,16.6,5,9.1,1,0,1,0,0,56,35.7
162.298,427.1,0.38,6.51,693.2,6.45,3.23,297.06,30,2.39,662.1,3.49,16.6,5,18.2,2,0,1,0,0,56,36.7
162.298,427.1,0.38,6.51,693.2,6.45,3.23,297.06,30,2.39,645.5,3.49,33.2,10,18.2,2,0,1,0,0,56,31.59
188,428,0.44,6.51,1015,0,0,0,0,2.39,638,0,0,0,0,0,1,0,0,0,28,33.77
188,428,0.44,6.51,710.5,6.45,3.23,304.5,30,2.39,638,0,0,0,0,0,1,0,0,0,28,35.17
188,428,0.44,6.51,710.5,6.45,3.23,304.5,30,2.39,622.4,3.49,15.62,5,0,0,1,0,0,0,28,28.56
188,428,0.44,6.51,710.5,6.45,3.23,304.5,30,2.39,622.4,3.49,15.62,5,4.54,0.5,0,1,0,0,28,30.09
188,428,0.44,6.51,710.5,6.45,3.23,304.5,30,2.39,606.8,3.49,31.24,10,0,0,1,0,0,0,28,26.04
188,428,0.44,6.51,1015,0,0,0,0,2.39,638,0,0,0,0,0,1,0,0,0,56,38.89
188,428,0.44,6.51,710.5,6.45,3.23,304.5,30,2.39,638,0,0,0,0,0,1,0,0,0,56,35.02
188,428,0.44,6.51,710.5,6.45,3.23,304.5,30,2.39,638,0,0,0,4.54,0.5,0,1,0,0,56,38.53
188,428,0.44,6.51,710.5,6.45,3.23,304.5,30,2.39,622.4,3.49,15.62,5,4.54,0.5,0,1,0,0,56,34
188,428,0.44,6.51,710.5,6.45,3.23,304.5,30,2.39,606.8,3.49,31.24,10,0,0,1,0,0,0,56,27.15
188,428,0.44,6.51,710.5,6.45,3.23,304.5,30,2.39,606.8,3.49,31.24,10,4.54,0.5,0,1,0,0,56,30.32
205,456,0.45,6.73,685.7,6.73,2.97,293.9,30,2.8,731.4,0,0,0,0,0,1,0,0,0,7,19.8
205,456,0.45,6.73,685.7,6.73,2.97,293.9,30,2.8,731.4,0,0,0,4.55,0.5,0,1,0,0,7,21.8
205,456,0.45,6.73,685.7,6.73,2.97,293.9,30,2.8,694.8,3.12,15.9,5,0,0,1,0,0,0,7,16.5
205,456,0.45,6.73,685.7,6.73,2.97,293.9,30,2.8,658.3,3.12,31.8,10,0,0,1,0,0,0,7,10.6
205,456,0.45,6.73,685.7,6.73,2.97,293.9,30,2.8,658.3,3.12,31.8,10,4.55,0.5,0,1,0,0,7,14.8
205,456,0.45,6.73,685.7,6.73,2.97,293.9,30,2.8,621.7,3.12,47.7,15,0,0,1,0,0,0,7,11
205,456,0.45,6.73,979.6,0,0,0,0,2.8,731.4,0,0,0,0,0,1,0,0,0,28,44.6
205,456,0.45,6.73,685.7,6.73,2.97,293.9,30,2.8,731.4,0,0,0,0,0,1,0,0,0,28,35.3
205,456,0.45,6.73,685.7,6.73,2.97,293.9,30,2.8,731.4,0,0,0,4.55,0.5,0,1,0,0,28,43
205,456,0.45,6.73,685.7,6.73,2.97,293.9,30,2.8,694.8,3.12,15.9,5,4.55,0.5,0,1,0,0,28,38.3
205,456,0.45,6.73,685.7,6.73,2.97,293.9,30,2.8,658.3,3.12,31.8,10,0,0,1,0,0,0,28,30.7
205,456,0.45,6.73,685.7,6.73,2.97,293.9,30,2.8,658.3,3.12,31.8,10,4.55,0.5,0,1,0,0,28,31.93
205,456,0.45,6.73,685.7,6.73,2.97,293.9,30,2.8,621.7,3.12,47.7,15,4.55,0.5,0,1,0,0,28,31.2
205,456,0.45,6.73,979.6,0,0,0,0,2.8,731.4,0,0,0,0,0,1,0,0,0,56,46.5
205,456,0.45,6.73,685.7,6.73,2.97,293.9,30,2.8,731.4,0,0,0,0,0,1,0,0,0,56,40.3
205,456,0.45,6.73,685.7,6.73,2.97,293.9,30,2.8,694.8,3.12,15.9,5,0,0,1,0,0,0,56,37.5
205,456,0.45,6.73,685.7,6.73,2.97,293.9,30,2.8,694.8,3.12,15.9,5,4.55,0.5,0,1,0,0,56,43.2
205,456,0.45,6.73,685.7,6.73,2.97,293.9,30,2.8,658.3,3.12,31.8,10,0,0,1,0,0,0,56,33.8
205,456,0.45,6.73,685.7,6.73,2.97,293.9,30,2.8,621.7,3.12,47.7,15,0,0,1,0,0,0,56,29.6
205,456,0.45,6.73,685.7,6.73,2.97,293.9,30,2.8,621.7,3.12,47.7,15,4.55,0.5,0,1,0,0,56,36.1
139,330,0.421212,0,0,6.5,3,1340,100,2.6,504,2.5,18.1,10,0,0,1,0,0,0,180,39.9
139,330,0.421212,0,0,6.5,3,1340,100,2.6,504,2.5,18.1,10,0,0,1,0,0,0,28,37.5
139,330,0.421212,0,0,6.5,3,1340,100,2.6,504,2.5,18.1,10,0,0,1,0,0,0,28,43.5
139,330,0.421212,0,0,6.5,3,1340,100,2.6,504,2.5,18.1,10,0,0,1,0,0,0,28,47.58
230,589,0.37,6.5,996,0,0,0,0,2.5,572,0,0,0,1,0,0,1,0,0,7,37.5
230,589,0.37,0,0,6.5,7.09,996,100,2.5,572,0,0,0,1,0,0,1,0,0,7,33.6
230,589,0.37,6.5,249,6.5,7.09,747,75,2.5,515,2.5,22.2,10,1,0,0,1,0,0,7,33.8
230,589,0.37,6.5,498,6.5,7.09,498,50,2.5,458,2.5,44.3,20,1,0,0,1,0,0,7,33.1
230,589,0.37,6.5,747,6.5,7.09,249,25,2.5,400,2.5,66.5,30,1,0,0,1,0,0,7,30.7
230,589,0.37,6.5,996,0,0,0,0,2.5,343,2.5,88.6,40,1,0,0,1,0,0,7,26.6
230,589,0.37,0,0,6.5,7.09,996,100,2.5,343,2.5,88.6,40,1,0,0,1,0,0,7,24.2
230,589,0.37,6.5,249,6.5,7.09,747,75,2.5,572,0,0,0,1,0,0,1,0,0,28,47.8
230,589,0.37,6.5,498,6.5,7.09,498,50,2.5,515,2.5,22.2,10,1,0,0,1,0,0,28,47.5
230,589,0.37,6.5,747,6.5,7.09,249,25,2.5,458,2.5,44.3,20,1,0,0,1,0,0,28,46
230,589,0.37,6.5,996,0,0,0,0,2.5,400,2.5,66.5,30,1,0,0,1,0,0,28,42.6
230,589,0.37,0,0,6.5,7.09,996,100,2.5,400,2.5,66.5,30,1,0,0,1,0,0,28,38.3
230,589,0.37,6.5,249,6.5,7.09,747,75,2.5,343,2.5,88.6,40,1,0,0,1,0,0,28,33.9
202.5,450,0.45,6.5,1050.65,6.5,3,167.37,20,2.5,290.11,2.5,65.62,20,0,0,1,0,0,0,7,22.63
202.5,450,0.45,6.5,1106.09,6.5,3,83.69,10,2.5,326.38,2.5,65.62,20,0,0,1,0,0,0,28,28.63
171,342,0.3,6.28,1015,0,0,0,0,2.74,746,0,0,0,0,0,1,0,0,0,28,43
252,446,0.56,6.5,912.95,6.5,8.96,48.1,5,2.5,585,0,0,0,0,0,1,0,0,0,28,25.5
252,446,0.56,6.5,961,0,0,0,0,2.5,526.5,2.5,58.5,10,0,0,1,0,0,0,28,22
252,446,0.56,6.5,864.9,6.5,8.96,96.1,10,2.5,585,2.5,67.5,10,0,0,1,0,0,0,28,20
126,385,0.34,6.5,1142,0,0,0,0,2.38,570,1.79,29,10,0,0,1,0,0,0,28,48.6
155,385,0.34,6.5,571,6.5,8.02,571,50,2.38,507,1.79,57,20,0,0,1,0,0,0,28,35.5
126,385,0.34,6.5,1142,0,0,0,0,2.38,633,0,0,0,4.55,0.5,0,1,0,0,28,36.6
184,385,0.34,0,0,6.5,8.02,1142,100,2.38,507,1.79,57,20,4.55,0.5,0,1,0,0,28,30.6
125,385,0.34,6.5,1142,0,0,0,0,2.38,507,1.79,57,20,0,0,1,0,0,0,56,34.8
185,385,0.34,0,0,6.5,8.02,1142,100,2.38,633,0,0,0,0,0,1,0,0,0,56,50.6
125,385,0.34,6.5,1142,0,0,0,0,2.38,507,1.79,57,20,4.55,0.5,0,1,0,0,56,26.7
155,385,0.34,6.5,571,6.5,8.02,571,50,2.38,570,1.79,29,10,4.55,0.5,0,1,0,0,56,25.6
222,460,0.35,0,0,6.5,3.82,994.5,100,2.52,576.1,2.5,20.4,8,78,1,0,0,1,0,120,49.8
120,385,0.31,6.5,571,6.5,4.42,571,50,2.5,570,2.5,29,10,0,0,1,0,0,0,7,26
124,385,0.31,0,0,6.5,4.42,1142,100,2.5,507,2.5,57,20,4.6,0.1,0,0,0,1,7,39
120,385,0.31,6.5,1142,0,0,0,0,2.5,633,0,0,0,4.6,0.1,0,0,0,1,28,60
120,385,0.31,6.5,571,6.5,4.42,571,50,2.5,570,2.5,29,10,0,0,1,0,0,0,56,35
124,385,0.31,0,0,6.5,4.42,1142,100,2.5,507,2.5,57,20,4.6,0.1,0,0,0,1,56,40
393,874,0.45,0,0,6.5,2,855,90,1.47,874,2.5,95,10,0,0.5,0,0,0,1,28,27.2
393,874,0.45,0,0,6.5,2,760,80,1.47,874,2.5,190,20,0,0.5,0,0,0,1,28,26.12
393,874,0.45,0,0,6.5,2,665,70,1.47,874,2.5,285,30,0,0.5,0,0,0,1,28,25.5
393,874,0.45,0,0,6.5,2,570,60,1.47,874,2.5,380,40,0,0.5,0,0,0,1,28,23.32
393,874,0.45,0,0,6.5,2,475,50,1.47,874,2.5,475,50,0,0.5,0,0,0,1,28,20.82
207,485,0.35,0,0,6.5,3.82,954,100,2.52,625,2.5,7.9,4,78,1,0,0,1,0,88,49.06
172,358.3,0.480045,6.5,1041.2,0,0,0,0,2.52,785.5,0,0,0,0,0,1,0,0,0,90,45.65
191.3,358.3,0.53391,0,0,6.5,2.1,964.9,100,2.52,785.5,0,0,0,78,1,0,0,1,0,90,36.12
191.3,340.4,0.561986,0,0,6.5,2.1,964.9,100,2.52,746.2,2.5,15.7,5,78,1,0,0,1,0,90,34.19
191.3,322.5,0.593178,0,0,6.5,2.1,964.9,100,2.52,707,2.5,31.3,10,78,1,0,0,1,0,90,33.59
191.3,358.3,0.53391,0,0,6.5,2.1,964.9,100,2.52,628.4,2.5,62.7,20,78,1,0,0,1,0,90,30.5
191.3,322.5,0.593178,0,0,6.5,2.1,964.9,100,2.52,628.4,2.5,62.7,20,78,1,0,0,1,0,90,30.96

File: Flexural.csv
Water_kg_m3,Cement_kg_m3,Water_Cement,NCA_FM,NCA_kg_m3,RCA_FM,RCA_Absorption_Capacity_perc,RCA_kg_m3,Replacement_Percentage_of_RCA,NFA_FM,NFA_kg_m3,CR_FM,CR_kg_m3,Replacement_Percentage_of_CR,Addition_of_Fiber_kg_m3,Addition_of_Fiber_perc,No_Fiber,PP,Steel,Steel_Tire_Wires,Age_in_Days,Flexural_Strength_MPa
162.298,427.1,0.38,6.51,990.2,0,0,0,0,2.39,678.7,0,0,0,0,0,1,0,0,0,28,3.52
162.298,427.1,0.38,6.51,891.2,6.45,3.23,99.02,10,2.39,678.7,0,0,0,0,0,1,0,0,0,28,3.48
162.298,427.1,0.38,6.51,891.2,6.45,3.23,99.02,10,2.39,678.7,0,0,0,9.1,1,0,1,0,0,28,3.51
162.298,427.1,0.38,6.51,891.2,6.45,3.23,99.02,10,2.39,678.7,0,0,0,18.2,2,0,1,0,0,28,3.57
162.298,427.1,0.38,6.51,891.2,6.45,3.23,99.02,10,2.39,662.1,3.49,16.6,5,9.1,1,0,1,0,0,28,3
162.298,427.1,0.38,6.51,891.2,6.45,3.23,99.02,10,2.39,662.1,3.49,16.6,5,18.2,2,0,1,0,0,28,3.12
162.298,427.1,0.38,6.51,891.2,6.45,3.23,99.02,10,2.39,645.5,3.49,33.2,10,9.1,1,0,1,0,0,28,2.95
162.298,427.1,0.38,6.51,891.2,6.45,3.23,99.02,10,2.39,645.5,3.49,33.2,10,18.2,2,0,1,0,0,28,3.06
162.298,427.1,0.38,6.51,693.2,6.45,3.23,297.06,30,2.39,678.7,0,0,0,0,0,1,0,0,0,28,3.2
162.298,427.1,0.38,6.51,693.2,6.45,3.23,297.06,30,2.39,678.7,0,0,0,9.1,1,0,1,0,0,28,3.38
162.298,427.1,0.38,6.51,693.2,6.45,3.23,297.06,30,2.39,678.7,0,0,0,18.2,2,0,1,0,0,28,3.82
162.298,427.1,0.38,6.51,693.2,6.45,3.23,297.06,30,2.39,662.1,3.49,16.6,5,9.1,1,0,1,0,0,28,3.35
162.298,427.1,0.38,6.51,693.2,6.45,3.23,297.06,30,2.39,662.1,3.49,16.6,5,18.2,2,0,1,0,0,28,3.8
162.298,427.1,0.38,6.51,693.2,6.45,3.23,297.06,30,2.39,645.5,3.49,33.2,10,9.1,1,0,1,0,0,28,3.33
162.298,427.1,0.38,6.51,693.2,6.45,3.23,297.06,30,2.39,645.5,3.49,33.2,10,18.2,2,0,1,0,0,28,3.49
205,456,0.45,6.73,979.6,0,0,0,0,2.8,731.4,0,0,0,0,0,1,0,0,0,56,4.85
205,456,0.45,6.73,979.6,0,0,0,0,2.8,731.4,0,0,0,0,0,1,0,0,0,56,5.15
205,456,0.45,6.73,979.6,0,0,0,0,2.8,731.4,0,0,0,0,0,1,0,0,0,56,5.2
205,456,0.45,6.73,685.7,6.73,2.97,293.9,30,2.8,731.4,0,0,0,0,0,1,0,0,0,56,5.13
205,456,0.45,6.73,685.7,6.73,2.97,293.9,30,2.8,731.4,0,0,0,0,0,1,0,0,0,56,4.95
205,456,0.45,6.73,685.7,6.73,2.97,293.9,30,2.8,731.4,0,0,0,0,0,1,0,0,0,56,5.04
205,456,0.45,6.73,685.7,6.73,2.97,293.9,30,2.8,731.4,0,0,0,4.55,0.5,0,1,0,0,56,4.2
205,456,0.45,6.73,685.7,6.73,2.97,293.9,30,2.8,731.4,0,0,0,4.55,0.5,0,1,0,0,56,4.45
205,456,0.45,6.73,685.7,6.73,2.97,293.9,30,2.8,731.4,0,0,0,4.55,0.5,0,1,0,0,56,4.4
205,456,0.45,6.73,685.7,6.73,2.97,293.9,30,2.8,694.8,3.12,15.9,5,0,0,1,0,0,0,56,4.12
205,456,0.45,6.73,685.7,6.73,2.97,293.9,30,2.8,694.8,3.12,15.9,5,0,0,1,0,0,0,56,3.95
205,456,0.45,6.73,685.7,6.73,2.97,293.9,30,2.8,694.8,3.12,15.9,5,0,0,1,0,0,0,56,4.02
205,456,0.45,6.73,685.7,6.73,2.97,293.9,30,2.8,694.8,3.12,15.9,5,4.55,0.5,0,1,0,0,56,3.92
205,456,0.45,6.73,685.7,6.73,2.97,293.9,30,2.8,694.8,3.12,15.9,5,4.55,0.5,0,1,0,0,56,3.85
205,456,0.45,6.73,685.7,6.73,2.97,293.9,30,2.8,694.8,3.12,15.9,5,4.55,0.5,0,1,0,0,56,4
205,456,0.45,6.73,685.7,6.73,2.97,293.9,30,2.8,658.3,3.12,31.8,10,0,0,1,0,0,0,56,6.15
205,456,0.45,6.73,685.7,6.73,2.97,293.9,30,2.8,658.3,3.12,31.8,10,0,0,1,0,0,0,56,5.87
205,456,0.45,6.73,685.7,6.73,2.97,293.9,30,2.8,658.3,3.12,31.8,10,0,0,1,0,0,0,56,6.15
205,456,0.45,6.73,685.7,6.73,2.97,293.9,30,2.8,658.3,3.12,31.8,10,4.55,0.5,0,1,0,0,56,4.87
205,456,0.45,6.73,685.7,6.73,2.97,293.9,30,2.8,658.3,3.12,31.8,10,4.55,0.5,0,1,0,0,56,4.7
205,456,0.45,6.73,685.7,6.73,2.97,293.9,30,2.8,658.3,3.12,31.8,10,4.55,0.5,0,1,0,0,56,4.6
205,456,0.45,6.73,685.7,6.73,2.97,293.9,30,2.8,621.7,3.12,47.7,15,0,0,1,0,0,0,56,4.67
205,456,0.45,6.73,685.7,6.73,2.97,293.9,30,2.8,621.7,3.12,47.7,15,0,0,1,0,0,0,56,4.81
205,456,0.45,6.73,685.7,6.73,2.97,293.9,30,2.8,621.7,3.12,47.7,15,0,0,1,0,0,0,56,4.55
205,456,0.45,6.73,685.7,6.73,2.97,293.9,30,2.8,621.7,3.12,47.7,15,4.55,0.5,0,1,0,0,56,4.38
205,456,0.45,6.73,685.7,6.73,2.97,293.9,30,2.8,621.7,3.12,47.7,15,4.55,0.5,0,1,0,0,56,4.44
205,456,0.45,6.73,685.7,6.73,2.97,293.9,30,2.8,621.7,3.12,47.7,15,4.55,0.5,0,1,0,0,56,4.43
125,330,0.378788,6.5,1443,0,0,0,0,2.6,560,0,0,0,0,0,1,0,0,0,180,5.74
139,330,0.421212,0,0,6.5,3,1340,100,2.6,560,0,0,0,0,0,1,0,0,0,180,5.15
139,330,0.421212,0,0,6.5,3,1340,100,2.6,504,2.5,18.1,10,0,0,1,0,0,0,180,4.8
139,330,0.421212,0,0,6.5,3,1340,100,2.6,448,2.5,36.2,20,0,0,1,0,0,0,180,4.53
139,330,0.421212,0,0,6.5,3,1340,100,2.6,392,2.5,54.3,30,0,0,1,0,0,0,180,4.1
139,330,0.421212,0,0,6.5,3,1340,100,2.6,560,0,0,0,0,0,1,0,0,0,28,5.2
139,330,0.421212,0,0,6.5,3,1340,100,2.6,504,2.5,18.1,10,0,0,1,0,0,0,28,4.57
139,330,0.421212,0,0,6.5,3,1340,100,2.6,448,2.5,36.2,20,0,0,1,0,0,0,28,4.05
139,330,0.421212,0,0,6.5,3,1340,100,2.6,392,2.5,54.3,30,0,0,1,0,0,0,28,3.83
139,330,0.421212,0,0,6.5,3,1340,100,2.6,336,2.5,72.4,40,0,0,1,0,0,0,28,3.67
139,330,0.421212,0,0,6.5,3,1340,100,2.6,504,2.5,18.1,10,0,0,1,0,0,0,28,4.87
139,330,0.421212,0,0,6.5,3,1340,100,2.6,448,2.5,36.2,20,0,0,1,0,0,0,28,4.5
139,330,0.421212,0,0,6.5,3,1340,100,2.6,392,2.5,54.3,30,0,0,1,0,0,0,28,4.27
139,330,0.421212,0,0,6.5,3,1340,100,2.6,336,2.5,72.4,40,0,0,1,0,0,0,28,3.73
139,330,0.421212,0,0,6.5,3,1340,100,2.6,504,2.5,18.1,10,0,0,1,0,0,0,28,5
139,330,0.421212,0,0,6.5,3,1340,100,2.6,448,2.5,36.2,20,0,0,1,0,0,0,28,4.63
139,330,0.421212,0,0,6.5,3,1340,100,2.6,392,2.5,54.3,30,0,0,1,0,0,0,28,4.333
139,330,0.421212,0,0,6.5,3,1340,100,2.6,336,2.5,72.4,40,0,0,1,0,0,0,28,3.9
126,385,0.34,6.5,1142,0,0,0,0,2.38,633,0,0,0,0,0,1,0,0,0,56,4.7
126,385,0.34,6.5,1142,0,0,0,0,2.38,570,1.79,29,10,0,0,1,0,0,0,56,4.3
125,385,0.34,6.5,1142,0,0,0,0,2.38,507,1.79,57,20,0,0,1,0,0,0,56,3.8
155,385,0.34,6.5,571,6.5,8.02,571,50,2.38,633,0,0,0,0,0,1,0,0,0,56,4.95
155,385,0.34,6.5,571,6.5,8.02,571,50,2.38,570,1.79,29,10,0,0,1,0,0,0,56,3.8
155,385,0.34,6.5,571,6.5,8.02,571,50,2.38,507,1.79,57,20,0,0,1,0,0,0,56,3.8
185,385,0.34,0,0,6.5,8.02,1142,100,2.38,633,0,0,0,0,0,1,0,0,0,56,4.75
184,385,0.34,0,0,6.5,8.02,1142,100,2.38,570,1.79,29,10,0,0,1,0,0,0,56,3.55
184,385,0.34,0,0,6.5,8.02,1142,100,2.38,507,1.79,57,20,0,0,1,0,0,0,56,3.2
184,460,0.35,6.5,1113.2,0,0,0,0,2.52,626.2,0,0,0,0,0,1,0,0,0,120,8.5
222,460,0.35,0,0,6.5,3.82,994.5,100,2.52,626.2,0,0,0,78,1,0,0,1,0,120,7.8
222,460,0.35,0,0,6.5,3.82,994.5,100,2.52,601.2,2.5,10.2,4,78,1,0,0,1,0,120,6.9
222,460,0.35,0,0,6.5,3.82,994.5,100,2.52,576.1,2.5,20.4,8,78,1,0,0,1,0,120,5.9
222,460,0.35,0,0,6.5,3.82,994.5,100,2.52,551.1,2.5,30.6,12,78,1,0,0,1,0,120,6.1
222,460,0.35,0,0,6.5,3.82,994.5,100,2.52,526,2.5,40.8,16,78,1,0,0,1,0,120,5.7
119,385,0.31,6.5,1142,0,0,0,0,2.5,633,0,0,0,0,0,1,0,0,0,28,3.8
120,385,0.31,6.5,571,6.5,4.42,571,50,2.5,570,2.5,29,10,0,0,1,0,0,0,28,2.5
123,385,0.31,0,0,6.5,4.42,1142,100,2.5,507,2.5,57,20,0,0,1,0,0,0,28,3.5
120,385,0.31,6.5,1142,0,0,0,0,2.5,633,0,0,0,4.6,0.1,0,0,0,1,28,4.4
121.5,385,0.31,6.5,571,6.5,4.42,571,50,2.5,570,2.5,29,10,4.6,0.1,0,0,0,1,28,4.2
124,385,0.31,0,0,6.5,4.42,1142,100,2.5,507,2.5,57,20,4.6,0.1,0,0,0,1,28,3.5
393,874,0.45,6.5,950,0,0,0,0,1.47,874,0,0,0,0,0,1,0,0,0,28,10.61
393,874,0.45,0,0,6.5,2,855,90,1.47,874,2.5,95,10,0,0,1,0,0,0,28,10.14
393,874,0.45,0,0,6.5,2,855,90,1.47,874,2.5,95,10,0,0.25,0,0,0,1,28,10.86
393,874,0.45,0,0,6.5,2,855,90,1.47,874,2.5,95,10,0,0.5,0,0,0,1,28,11.49
393,874,0.45,0,0,6.5,2,855,90,1.47,874,2.5,95,10,0,1,0,0,0,1,28,11.72
393,874,0.45,0,0,6.5,2,760,80,1.47,874,2.5,190,20,0,0,1,0,0,0,28,7.75
393,874,0.45,0,0,6.5,2,760,80,1.47,874,2.5,190,20,0,0.25,0,0,0,1,28,8.27
393,874,0.45,0,0,6.5,2,760,80,1.47,874,2.5,190,20,0,0.5,0,0,0,1,28,9.2
393,874,0.45,0,0,6.5,2,760,80,1.47,874,2.5,190,20,0,1,0,0,0,1,28,9.36
393,874,0.45,0,0,6.5,2,665,70,1.47,874,2.5,285,30,0,0,1,0,0,0,28,7.14
393,874,0.45,0,0,6.5,2,665,70,1.47,874,2.5,285,30,0,0.25,0,0,0,1,28,7.85
393,874,0.45,0,0,6.5,2,665,70,1.47,874,2.5,285,30,0,0.5,0,0,0,1,28,8.06
393,874,0.45,0,0,6.5,2,665,70,1.47,874,2.5,285,30,0,1,0,0,0,1,28,8.79
393,874,0.45,0,0,6.5,2,570,60,1.47,874,2.5,380,40,0,0,1,0,0,0,28,6.32
393,874,0.45,0,0,6.5,2,570,60,1.47,874,2.5,380,40,0,0.25,0,0,0,1,28,6.64
393,874,0.45,0,0,6.5,2,570,60,1.47,874,2.5,380,40,0,0.5,0,0,0,1,28,6.98
393,874,0.45,0,0,6.5,2,570,60,1.47,874,2.5,380,40,0,1,0,0,0,1,28,7.41
393,874,0.45,0,0,6.5,2,475,50,1.47,874,2.5,475,50,0,0,1,0,0,0,28,4.46
393,874,0.45,0,0,6.5,2,475,50,1.47,874,2.5,475,50,0,0.25,0,0,0,1,28,5.12
393,874,0.45,0,0,6.5,2,475,50,1.47,874,2.5,475,50,0,0.5,0,0,0,1,28,5.48
393,874,0.45,0,0,6.5,2,475,50,1.47,874,2.5,475,50,0,1,0,0,0,1,28,6.22

File: Tensile2.csv
Water / Cement Ratio,NCA Fineness Modulus,NCA (kg/m3),RCA Fineness Modulus,RCA Absorption Capacity (%),RCA (kg/m3),Replacement Percentage of RCA (%),NFA Fineness Modulus,NFA (kg/m3),CR Fineness Modulus,CR (kg/m3),Replacement Percentage of CR (%),Addition of Fiber (kg/m3),Addition of Fiber (%),No Fiber,PP,SteelTireWire,Age in Days,Tensile  Strength (MPa)
0.38,6.51,990.2,0,0,0,0,2.39,678.7,0,0,0,0,0,1,0,0,28,3.14
0.38,6.51,891.2,6.45,3.23,99.02,10,2.39,678.7,0,0,0,9.1,1,0,1,0,28,3.16
0.38,6.51,891.2,6.45,3.23,99.02,10,2.39,662.1,3.49,16.6,5,9.1,1,0,1,0,28,2.82
0.38,6.51,891.2,6.45,3.23,99.02,10,2.39,645.5,3.49,33.2,10,9.1,1,0,1,0,28,2.79
0.38,6.51,693.2,6.45,3.23,297.06,30,2.39,678.7,0,0,0,0,0,1,0,0,28,3.03
0.38,6.51,693.2,6.45,3.23,297.06,30,2.39,678.7,0,0,0,18.2,2,0,1,0,28,3.49
0.38,6.51,693.2,6.45,3.23,297.06,30,2.39,662.1,3.49,16.6,5,18.2,2,0,1,0,28,2.98
0.38,6.51,693.2,6.45,3.23,297.06,30,2.39,645.5,3.49,33.2,10,18.2,2,0,1,0,28,2.64
0.38,6.51,891.2,6.45,3.23,99.02,10,2.39,678.7,0,0,0,0,0,1,0,0,56,3.29
0.38,6.51,891.2,6.45,3.23,99.02,10,2.39,678.7,0,0,0,18.2,2,0,1,0,56,3.98
0.38,6.51,891.2,6.45,3.23,99.02,10,2.39,662.1,3.49,16.6,5,18.2,2,0,1,0,56,3.89
0.38,6.51,891.2,6.45,3.23,99.02,10,2.39,645.5,3.49,33.2,10,18.2,2,0,1,0,56,3.24
0.38,6.51,693.2,6.45,3.23,297.06,30,2.39,678.7,0,0,0,9.1,1,0,1,0,56,3.69
0.38,6.51,693.2,6.45,3.23,297.06,30,2.39,662.1,3.49,16.6,5,9.1,1,0,1,0,56,3.09
0.38,6.51,693.2,6.45,3.23,297.06,30,2.39,645.5,3.49,33.2,10,9.1,1,0,1,0,56,3.04
0.44,6.51,1015,0,0,0,0,2.39,638,0,0,0,0,0,1,0,0,28,2.53
0.44,6.51,1015,0,0,0,0,2.39,638,0,0,0,0,0,1,0,0,28,2.47
0.44,6.51,710.5,6.45,3.23,304.5,30,2.39,638,0,0,0,0,0,1,0,0,28,2.33
0.44,6.51,710.5,6.45,3.23,304.5,30,2.39,638,0,0,0,4.54,0.5,0,1,0,28,2.23
0.44,6.51,710.5,6.45,3.23,304.5,30,2.39,638,0,0,0,4.54,0.5,0,1,0,28,2.86
0.44,6.51,710.5,6.45,3.23,304.5,30,2.39,622.4,3.49,15.62,5,0,0,1,0,0,28,2.37
0.44,6.51,710.5,6.45,3.23,304.5,30,2.39,622.4,3.49,15.62,5,4.54,0.5,0,1,0,28,2.48
0.44,6.51,710.5,6.45,3.23,304.5,30,2.39,622.4,3.49,15.62,5,4.54,0.5,0,1,0,28,2.43
0.44,6.51,710.5,6.45,3.23,304.5,30,2.39,606.8,3.49,31.24,10,0,0,1,0,0,28,2.1
0.44,6.51,710.5,6.45,3.23,304.5,30,2.39,606.8,3.49,31.24,10,4.54,0.5,0,1,0,28,2.25
0.44,6.51,710.5,6.45,3.23,304.5,30,2.39,606.8,3.49,31.24,10,4.54,0.5,0,1,0,28,2.34
0.44,6.51,1015,0,0,0,0,2.39,638,0,0,0,0,0,1,0,0,56,2.63
0.44,6.51,710.5,6.45,3.23,304.5,30,2.39,638,0,0,0,0,0,1,0,0,56,2.53
0.44,6.51,710.5,6.45,3.23,304.5,30,2.39,638,0,0,0,0,0,1,0,0,56,2.54
0.44,6.51,710.5,6.45,3.23,304.5,30,2.39,638,0,0,0,4.54,0.5,0,1,0,56,2.67
0.44,6.51,710.5,6.45,3.23,304.5,30,2.39,622.4,3.49,15.62,5,0,0,1,0,0,56,2.47
0.44,6.51,710.5,6.45,3.23,304.5,30,2.39,622.4,3.49,15.62,5,0,0,1,0,0,56,2.42
0.44,6.51,710.5,6.45,3.23,304.5,30,2.39,622.4,3.49,15.62,5,4.54,0.5,0,1,0,56,2.25
0.44,6.51,710.5,6.45,3.23,304.5,30,2.39,606.8,3.49,31.24,10,0,0,1,0,0,56,2.22
0.44,6.51,710.5,6.45,3.23,304.5,30,2.39,606.8,3.49,31.24,10,0,0,1,0,0,56,2.35
0.44,6.51,710.5,6.45,3.23,304.5,30,2.39,606.8,3.49,31.24,10,4.54,0.5,0,1,0,56,2.24
0.45,6.73,979.6,0,0,0,0,2.8,731.4,0,0,0,0,0,1,0,0,56,3.504
0.45,6.73,979.6,0,0,0,0,2.8,731.4,0,0,0,0,0,1,0,0,56,3.253
0.45,6.73,685.7,6.73,2.97,293.9,30,2.8,731.4,0,0,0,0,0,1,0,0,56,3.27
0.45,6.73,685.7,6.73,2.97,293.9,30,2.8,731.4,0,0,0,4.55,0.5,0,1,0,56,3.337
0.45,6.73,685.7,6.73,2.97,293.9,30,2.8,731.4,0,0,0,4.55,0.5,0,1,0,56,3.197
0.45,6.73,685.7,6.73,2.97,293.9,30,2.8,694.8,3.12,15.9,5,0,0,1,0,0,56,3.179
0.45,6.73,685.7,6.73,2.97,293.9,30,2.8,694.8,3.12,15.9,5,4.55,0.5,0,1,0,56,2.422
0.45,6.73,685.7,6.73,2.97,293.9,30,2.8,694.8,3.12,15.9,5,4.55,0.5,0,1,0,56,2.559
0.45,6.73,685.7,6.73,2.97,293.9,30,2.8,658.3,3.12,31.8,10,0,0,1,0,0,56,3.73
0.45,6.73,685.7,6.73,2.97,293.9,30,2.8,658.3,3.12,31.8,10,4.55,0.5,0,1,0,56,3.275
0.45,6.73,685.7,6.73,2.97,293.9,30,2.8,658.3,3.12,31.8,10,4.55,0.5,0,1,0,56,3.484
0.45,6.73,685.7,6.73,2.97,293.9,30,2.8,621.7,3.12,47.7,15,0,0,1,0,0,56,3.266
0.45,6.73,685.7,6.73,2.97,293.9,30,2.8,621.7,3.12,47.7,15,4.55,0.5,0,1,0,56,2.83
0.45,6.73,685.7,6.73,2.97,293.9,30,2.8,621.7,3.12,47.7,15,4.55,0.5,0,1,0,56,2.928
0.45,6.5,1106.09,6.5,3,83.69,10,2.5,326.38,2.5,65.62,20,0,0,1,0,0,7,2.56
0.45,6.5,995.2,6.5,3,251.06,30,2.5,253.85,2.5,65.62,20,0,0,1,0,0,7,2.3
0.45,6.5,1161.53,0,0,0,0,2.5,362.64,2.5,65.62,20,0,0,1,0,0,28,2.71
0.45,6.5,1050.65,6.5,3,167.37,20,2.5,290.11,2.5,65.62,20,0,0,1,0,0,28,2.75
0.45,6.5,939.76,6.5,3,334.74,40,2.5,217.58,2.5,65.62,20,0,0,1,0,0,28,3.07
0.34,6.5,1142,0,0,0,0,2.38,570,1.79,29,10,0,0,1,0,0,56,4.73
0.34,6.5,571,6.5,8.02,571,50,2.38,633,0,0,0,0,0,1,0,0,56,4.55
0.34,6.5,571,6.5,8.02,571,50,2.38,507,1.79,57,20,0,0,1,0,0,56,3.5
0.34,0,0,6.5,8.02,1142,100,2.38,570,1.79,29,10,0,0,1,0,0,56,3.43
0.34,6.5,1142,0,0,0,0,2.38,633,0,0,0,4.55,0.5,0,1,0,56,4.78
0.34,6.5,571,6.5,8.02,571,50,2.38,507,1.79,0,20,4.55,0.5,0,1,0,56,3.55
0.34,0,0,6.5,8.02,1142,100,2.38,507,1.79,57,20,4.55,0.5,0,1,0,56,3.34
0.31,6.5,1142,0,0,0,0,2.5,633,0,0,0,0,0,1,0,0,28,4
0.31,0,0,6.5,4.42,1142,100,2.5,507,2.5,57,20,0,0,1,0,0,28,2.5
0.31,6.5,571,6.5,4.42,571,50,2.5,570,2.5,29,10,4.6,0.1,0,0,1,28,4.5
0.45,6.5,950,0,0,0,0,1.47,874,0,0,0,0,0,1,0,0,28,5.12
0.45,0,0,6.5,2,855,90,1.47,874,2.5,95,10,0,0.25,0,0,1,28,5.4
0.45,0,0,6.5,2,855,90,1.47,874,2.5,95,10,0,1,0,0,1,28,5.72
0.45,0,0,6.5,2,760,80,1.47,874,2.5,190,20,0,0.25,0,0,1,28,3.48
0.45,0,0,6.5,2,760,80,1.47,874,2.5,190,20,0,1,0,0,1,28,3.88
0.45,0,0,6.5,2,665,70,1.47,874,2.5,285,30,0,0.25,0,0,1,28,3.29
0.45,0,0,6.5,2,665,70,1.47,874,2.5,285,30,0,1,0,0,1,28,3.68
0.45,0,0,6.5,2,570,60,1.47,874,2.5,380,40,0,0.25,0,0,1,28,2.92
0.45,0,0,6.5,2,570,60,1.47,874,2.5,380,40,0,1,0,0,1,28,3.58
0.45,0,0,6.5,2,475,50,1.47,874,2.5,475,50,0,0.25,0,0,1,28,2.64
0.45,0,0,6.5,2,475,50,1.47,874,2.5,475,50,0,1,0,0,1,28,3.4